delay	freq	condition	trials.thisRepN	trials.thisTrialN	trials.thisN	trials.thisIndex	polygon.started	polygon_2.started	key_resp.started	polygon.stopped	key_resp.keys	key_resp.rt	sound_1.started	sound_1.stopped	text.started	textbox.started	button.started	textbox.text	button.numClicks	button.timesOn	button.timesOff	participant	session	date	expName	psychopyVersion	frameRate
0.7	1000	exp	0	0	0	8	73.6709281	74.4778705	74.4778705	74.6779019	space	2.1531422	77.42742714	77.7889266	77.7889266	77.7889266	77.7889266	300	1	[6.603961699875072]	[6.603966000024229]	final100	1	2022-11-10_23h08.43.428	Intentional Binding	2022.2.4	59.93770077
0.1	1000	exp	0	1	1	9	84.3261401	85.3250395	85.3250395	85.3250395	space	2.1747982	87.62468754	87.9241693	87.9241693	87.9241693	87.9241693	200	2	"[6.603961699875072, 7.181363600073382]"	"[6.603966000024229, 7.181370500009507]"	final100	1	2022-11-10_23h08.43.428	Intentional Binding	2022.2.4	59.93770077
0.4	1000	exp	0	2	2	7	95.1063026	96.1055682	96.1055682	96.1055682	space	0.9617539	97.48854394	97.8524801	97.8524801	97.8524801	97.8524801	400	3	"[6.603961699875072, 7.181363600073382, 4.178450099891052]"	"[6.603966000024229, 7.181370500009507, 4.178457000060007]"	final100	1	2022-11-10_23h08.43.428	Intentional Binding	2022.2.4	59.93770077
0.1	1000	exp	0	3	3	3	102.0382804	103.0374681	103.0374681	103.0374681	space	0.2464176	103.4037493		103.703719	103.703719	103.703719	400	4	"[6.603961699875072, 7.181363600073382, 4.178450099891052, 5.105714899953455]"	"[6.603966000024229, 7.181370500009507, 4.178457000060007, 5.105719699990004]"	final100	1	2022-11-10_23h08.43.428	Intentional Binding	2022.2.4	59.93770077
0.7	1000	exp	0	4	4	5	108.8028621	109.8022587	109.8022587	109.8022587	space	0.2145114	110.7351765		111.0353002	111.0353002	111.0353002	300	5	"[6.603961699875072, 7.181363600073382, 4.178450099891052, 5.105714899953455, 4.187907999847084]"	"[6.603966000024229, 7.181370500009507, 4.178457000060007, 5.105719699990004, 4.187914100009948]"	final100	1	2022-11-10_23h08.43.428	Intentional Binding	2022.2.4	59.93770077
0.4	1000	exp	0	5	5	4	115.217955	116.2171743	116.2171743	116.2171743	space	1.0493978	117.6837423		117.9835367	117.9835367	117.9835367	500	6	"[6.603961699875072, 7.181363600073382, 4.178450099891052, 5.105714899953455, 4.187907999847084, 2.669467199826613]"	"[6.603966000024229, 7.181370500009507, 4.178457000060007, 5.105719699990004, 4.187914100009948, 2.669473099987954]"	final100	1	2022-11-10_23h08.43.428	Intentional Binding	2022.2.4	59.93770077
0.7	1000	exp	0	6	6	11	120.6497756	121.6492063	121.6492063	121.6492063	space	1.5399474	123.9155995		124.215473	124.215473	124.215473	300	7	"[6.603961699875072, 7.181363600073382, 4.178450099891052, 5.105714899953455, 4.187907999847084, 2.669467199826613, 4.382238200167194]"	"[6.603966000024229, 7.181370500009507, 4.178457000060007, 5.105719699990004, 4.187914100009948, 2.669473099987954, 4.382243599975482]"	final100	1	2022-11-10_23h08.43.428	Intentional Binding	2022.2.4	59.93770077
0.4	1000	exp	0	7	7	10	128.5978103	129.5972157	129.5972157	129.5972157	space	1.0842008	131.1134541		131.4137009	131.4137009	131.4137009	300	8	"[6.603961699875072, 7.181363600073382, 4.178450099891052, 5.105714899953455, 4.187907999847084, 2.669467199826613, 4.382238200167194, 3.832189899869263]"	"[6.603966000024229, 7.181370500009507, 4.178457000060007, 5.105719699990004, 4.187914100009948, 2.669473099987954, 4.382243599975482, 3.832196499919519]"	final100	1	2022-11-10_23h08.43.428	Intentional Binding	2022.2.4	59.93770077
0.4	400	unexp	0	8	8	1	135.2461229	136.2454124	136.2454124	136.2454124	space	0.0066479	136.6788245		136.9622403	136.9622403	136.9622403	300	9	"[6.603961699875072, 7.181363600073382, 4.178450099891052, 5.105714899953455, 4.187907999847084, 2.669467199826613, 4.382238200167194, 3.832189899869263, 4.7979181001428515]"	"[6.603966000024229, 7.181370500009507, 4.178457000060007, 5.105719699990004, 4.187914100009948, 2.669473099987954, 4.382243599975482, 3.832196499919519, 4.797923100180924]"	final100	1	2022-11-10_23h08.43.428	Intentional Binding	2022.2.4	59.93770077
0.1	1000	exp	0	9	9	6	141.7611755	142.7605747	142.7605747	142.7605747	space	2.2618065	145.1431666		145.4435496	145.4435496	145.4435496	200	10	"[6.603961699875072, 7.181363600073382, 4.178450099891052, 5.105714899953455, 4.187907999847084, 2.669467199826613, 4.382238200167194, 3.832189899869263, 4.7979181001428515, 2.882275199983269]"	"[6.603966000024229, 7.181370500009507, 4.178457000060007, 5.105719699990004, 4.187914100009948, 2.669473099987954, 4.382243599975482, 3.832196499919519, 4.797923100180924, 2.8822822000365704]"	final100	1	2022-11-10_23h08.43.428	Intentional Binding	2022.2.4	59.93770077
0.1	400	unexp	0	10	10	0	148.3257378	149.3254294	149.3254294	149.3254294	space	0.4534414	149.908877		150.2087618	150.2087618	150.2087618	400	11	"[6.603961699875072, 7.181363600073382, 4.178450099891052, 5.105714899953455, 4.187907999847084, 2.669467199826613, 4.382238200167194, 3.832189899869263, 4.7979181001428515, 2.882275199983269, 6.531213799957186]"	"[6.603966000024229, 7.181370500009507, 4.178457000060007, 5.105719699990004, 4.187914100009948, 2.669473099987954, 4.382243599975482, 3.832196499919519, 4.797923100180924, 2.8822822000365704, 6.531221800018102]"	final100	1	2022-11-10_23h08.43.428	Intentional Binding	2022.2.4	59.93770077
0.7	400	unexp	0	11	11	2	156.7406194	157.7403475	157.7403475	157.7403475	space	0.9343704	159.4065296	159.7064594	159.7064594	159.7064594	159.7064594	300	12	"[6.603961699875072, 7.181363600073382, 4.178450099891052, 5.105714899953455, 4.187907999847084, 2.669467199826613, 4.382238200167194, 3.832189899869263, 4.7979181001428515, 2.882275199983269, 6.531213799957186, 6.316855799872428]"	"[6.603966000024229, 7.181370500009507, 4.178457000060007, 5.105719699990004, 4.187914100009948, 2.669473099987954, 4.382243599975482, 3.832196499919519, 4.797923100180924, 2.8822822000365704, 6.531221800018102, 6.316859500017017]"	final100	1	2022-11-10_23h08.43.428	Intentional Binding	2022.2.4	59.93770077
0.1	1000	exp	1	0	12	6	166.0219274	167.0211726	167.0211726	167.0211726	space	0.3067128	167.4543711		167.7544048	167.7544048	167.7544048	100	13	"[6.603961699875072, 7.181363600073382, 4.178450099891052, 5.105714899953455, 4.187907999847084, 2.669467199826613, 4.382238200167194, 3.832189899869263, 4.7979181001428515, 2.882275199983269, 6.531213799957186, 6.316855799872428, 3.3994853000622243]"	"[6.603966000024229, 7.181370500009507, 4.178457000060007, 5.105719699990004, 4.187914100009948, 2.669473099987954, 4.382243599975482, 3.832196499919519, 4.797923100180924, 2.8822822000365704, 6.531221800018102, 6.316859500017017, 3.3995135999284685]"	final100	1	2022-11-10_23h08.43.428	Intentional Binding	2022.2.4	59.93770077
0.1	1000	exp	1	1	13	3	171.1535907	172.1533997	172.1533997	172.1533997	space	0.4281418	172.702995		173.0038188	173.0038188	173.0038188	100	14	"[6.603961699875072, 7.181363600073382, 4.178450099891052, 5.105714899953455, 4.187907999847084, 2.669467199826613, 4.382238200167194, 3.832189899869263, 4.7979181001428515, 2.882275199983269, 6.531213799957186, 6.316855799872428, 3.3994853000622243, 2.432480299845338]"	"[6.603966000024229, 7.181370500009507, 4.178457000060007, 5.105719699990004, 4.187914100009948, 2.669473099987954, 4.382243599975482, 3.832196499919519, 4.797923100180924, 2.8822822000365704, 6.531221800018102, 6.316859500017017, 3.3995135999284685, 2.4324890999123454]"	final100	1	2022-11-10_23h08.43.428	Intentional Binding	2022.2.4	59.93770077
0.4	400	unexp	1	2	14	1	175.4360788	176.4358455	176.4358455	176.4358455	space	0.3559729	177.2186947		177.5186004	177.5186004	177.5186004	200	15	"[6.603961699875072, 7.181363600073382, 4.178450099891052, 5.105714899953455, 4.187907999847084, 2.669467199826613, 4.382238200167194, 3.832189899869263, 4.7979181001428515, 2.882275199983269, 6.531213799957186, 6.316855799872428, 3.3994853000622243, 2.432480299845338, 2.6852002998348325]"	"[6.603966000024229, 7.181370500009507, 4.178457000060007, 5.105719699990004, 4.187914100009948, 2.669473099987954, 4.382243599975482, 3.832196499919519, 4.797923100180924, 2.8822822000365704, 6.531221800018102, 6.316859500017017, 3.3995135999284685, 2.4324890999123454, 2.68520459998399]"	final100	1	2022-11-10_23h08.43.428	Intentional Binding	2022.2.4	59.93770077
0.4	1000	exp	1	3	15	4	180.2013058	181.2011984	181.2011984	181.2011984	space	0.3345196	181.9673302		182.2676036	182.2676036	182.2676036	200	16	"[6.603961699875072, 7.181363600073382, 4.178450099891052, 5.105714899953455, 4.187907999847084, 2.669467199826613, 4.382238200167194, 3.832189899869263, 4.7979181001428515, 2.882275199983269, 6.531213799957186, 6.316855799872428, 3.3994853000622243, 2.432480299845338, 2.6852002998348325, 3.965880800038576]"	"[6.603966000024229, 7.181370500009507, 4.178457000060007, 5.105719699990004, 4.187914100009948, 2.669473099987954, 4.382243599975482, 3.832196499919519, 4.797923100180924, 2.8822822000365704, 6.531221800018102, 6.316859500017017, 3.3995135999284685, 2.4324890999123454, 2.68520459998399, 3.965885000070557]"	final100	1	2022-11-10_23h08.43.428	Intentional Binding	2022.2.4	59.93770077
0.7	1000	exp	1	4	16	11	186.233835	187.2329581	187.2329581	187.249399	space	0.3170312	188.2658001		188.5659927	188.5659927	188.5659927	300	17	"[6.603961699875072, 7.181363600073382, 4.178450099891052, 5.105714899953455, 4.187907999847084, 2.669467199826613, 4.382238200167194, 3.832189899869263, 4.7979181001428515, 2.882275199983269, 6.531213799957186, 6.316855799872428, 3.3994853000622243, 2.432480299845338, 2.6852002998348325, 3.965880800038576, 3.2316725999116898]"	"[6.603966000024229, 7.181370500009507, 4.178457000060007, 5.105719699990004, 4.187914100009948, 2.669473099987954, 4.382243599975482, 3.832196499919519, 4.797923100180924, 2.8822822000365704, 6.531221800018102, 6.316859500017017, 3.3995135999284685, 2.4324890999123454, 2.68520459998399, 3.965885000070557, 3.23168159998022]"	final100	1	2022-11-10_23h08.43.428	Intentional Binding	2022.2.4	59.93770077
0.4	1000	exp	1	5	17	10	191.7985798	192.7983808	192.7983808	192.7983808	space	0.2673053	193.4813446		193.7811558	193.7811558	193.7811558	200	18	"[6.603961699875072, 7.181363600073382, 4.178450099891052, 5.105714899953455, 4.187907999847084, 2.669467199826613, 4.382238200167194, 3.832189899869263, 4.7979181001428515, 2.882275199983269, 6.531213799957186, 6.316855799872428, 3.3994853000622243, 2.432480299845338, 2.6852002998348325, 3.965880800038576, 3.2316725999116898, 2.634471899829805]"	"[6.603966000024229, 7.181370500009507, 4.178457000060007, 5.105719699990004, 4.187914100009948, 2.669473099987954, 4.382243599975482, 3.832196499919519, 4.797923100180924, 2.8822822000365704, 6.531221800018102, 6.316859500017017, 3.3995135999284685, 2.4324890999123454, 2.68520459998399, 3.965885000070557, 3.23168159998022, 2.634477199986577]"	final100	1	2022-11-10_23h08.43.428	Intentional Binding	2022.2.4	59.93770077
0.4	1000	exp	1	6	18	7	196.4146155	197.4135796	197.4135796	197.4302912	space	0.3810882	198.2142209		198.5134987	198.5134987	198.5134987	300	19	"[6.603961699875072, 7.181363600073382, 4.178450099891052, 5.105714899953455, 4.187907999847084, 2.669467199826613, 4.382238200167194, 3.832189899869263, 4.7979181001428515, 2.882275199983269, 6.531213799957186, 6.316855799872428, 3.3994853000622243, 2.432480299845338, 2.6852002998348325, 3.965880800038576, 3.2316725999116898, 2.634471899829805, 2.4148711999878287]"	"[6.603966000024229, 7.181370500009507, 4.178457000060007, 5.105719699990004, 4.187914100009948, 2.669473099987954, 4.382243599975482, 3.832196499919519, 4.797923100180924, 2.8822822000365704, 6.531221800018102, 6.316859500017017, 3.3995135999284685, 2.4324890999123454, 2.68520459998399, 3.965885000070557, 3.23168159998022, 2.634477199986577, 2.414878499926999]"	final100	1	2022-11-10_23h08.43.428	Intentional Binding	2022.2.4	59.93770077
0.1	400	unexp	1	7	19	0	200.9299	201.9293455	201.9293455	201.9293455	space	0.3613923	202.4122911		202.7122086	202.7122086	202.7122086	200	20	"[6.603961699875072, 7.181363600073382, 4.178450099891052, 5.105714899953455, 4.187907999847084, 2.669467199826613, 4.382238200167194, 3.832189899869263, 4.7979181001428515, 2.882275199983269, 6.531213799957186, 6.316855799872428, 3.3994853000622243, 2.432480299845338, 2.6852002998348325, 3.965880800038576, 3.2316725999116898, 2.634471899829805, 2.4148711999878287, 3.298140700208023]"	"[6.603966000024229, 7.181370500009507, 4.178457000060007, 5.105719699990004, 4.187914100009948, 2.669473099987954, 4.382243599975482, 3.832196499919519, 4.797923100180924, 2.8822822000365704, 6.531221800018102, 6.316859500017017, 3.3995135999284685, 2.4324890999123454, 2.68520459998399, 3.965885000070557, 3.23168159998022, 2.634477199986577, 2.414878499926999, 3.2981606000103056]"	final100	1	2022-11-10_23h08.43.428	Intentional Binding	2022.2.4	59.93770077
0.7	1000	exp	1	8	20	5	206.0116746	207.0113213	207.0113213	207.0113213	space	0.1924554	207.9276868		208.2274662	208.2274662	208.2274662	300	21	"[6.603961699875072, 7.181363600073382, 4.178450099891052, 5.105714899953455, 4.187907999847084, 2.669467199826613, 4.382238200167194, 3.832189899869263, 4.7979181001428515, 2.882275199983269, 6.531213799957186, 6.316855799872428, 3.3994853000622243, 2.432480299845338, 2.6852002998348325, 3.965880800038576, 3.2316725999116898, 2.634471899829805, 2.4148711999878287, 3.298140700208023, 2.9324759000446647]"	"[6.603966000024229, 7.181370500009507, 4.178457000060007, 5.105719699990004, 4.187914100009948, 2.669473099987954, 4.382243599975482, 3.832196499919519, 4.797923100180924, 2.8822822000365704, 6.531221800018102, 6.316859500017017, 3.3995135999284685, 2.4324890999123454, 2.68520459998399, 3.965885000070557, 3.23168159998022, 2.634477199986577, 2.414878499926999, 3.2981606000103056, 2.932484900113195]"	final100	1	2022-11-10_23h08.43.428	Intentional Binding	2022.2.4	59.93770077
0.1	1000	exp	1	9	21	9	211.1605483	212.1601431	212.1601431	212.1601431	space	0.4136924	212.6929968	212.9937794	212.9937794	212.9937794	212.9937794	200	22	"[6.603961699875072, 7.181363600073382, 4.178450099891052, 5.105714899953455, 4.187907999847084, 2.669467199826613, 4.382238200167194, 3.832189899869263, 4.7979181001428515, 2.882275199983269, 6.531213799957186, 6.316855799872428, 3.3994853000622243, 2.432480299845338, 2.6852002998348325, 3.965880800038576, 3.2316725999116898, 2.634471899829805, 2.4148711999878287, 3.298140700208023, 2.9324759000446647, 3.049938900163397]"	"[6.603966000024229, 7.181370500009507, 4.178457000060007, 5.105719699990004, 4.187914100009948, 2.669473099987954, 4.382243599975482, 3.832196499919519, 4.797923100180924, 2.8822822000365704, 6.531221800018102, 6.316859500017017, 3.3995135999284685, 2.4324890999123454, 2.68520459998399, 3.965885000070557, 3.23168159998022, 2.634477199986577, 2.414878499926999, 3.2981606000103056, 2.932484900113195, 3.0499442000873387]"	final100	1	2022-11-10_23h08.43.428	Intentional Binding	2022.2.4	59.93770077
0.7	400	unexp	1	10	22	2	216.0425505	217.0420763	217.0420763	217.0420763	space	0.3325538	218.0919192		218.3915987	218.3915987	218.3915987	400	23	"[6.603961699875072, 7.181363600073382, 4.178450099891052, 5.105714899953455, 4.187907999847084, 2.669467199826613, 4.382238200167194, 3.832189899869263, 4.7979181001428515, 2.882275199983269, 6.531213799957186, 6.316855799872428, 3.3994853000622243, 2.432480299845338, 2.6852002998348325, 3.965880800038576, 3.2316725999116898, 2.634471899829805, 2.4148711999878287, 3.298140700208023, 2.9324759000446647, 3.049938900163397, 2.5323687000200152]"	"[6.603966000024229, 7.181370500009507, 4.178457000060007, 5.105719699990004, 4.187914100009948, 2.669473099987954, 4.382243599975482, 3.832196499919519, 4.797923100180924, 2.8822822000365704, 6.531221800018102, 6.316859500017017, 3.3995135999284685, 2.4324890999123454, 2.68520459998399, 3.965885000070557, 3.23168159998022, 2.634477199986577, 2.414878499926999, 3.2981606000103056, 2.932484900113195, 3.0499442000873387, 2.532377399969846]"	final100	1	2022-11-10_23h08.43.428	Intentional Binding	2022.2.4	59.93770077
0.7	1000	exp	1	11	23	8	220.9247252	221.9242931	221.9242931	221.9242931	space	0.3252046	222.9739527		223.2736038	223.2736038	223.2736038	400	24	"[6.603961699875072, 7.181363600073382, 4.178450099891052, 5.105714899953455, 4.187907999847084, 2.669467199826613, 4.382238200167194, 3.832189899869263, 4.7979181001428515, 2.882275199983269, 6.531213799957186, 6.316855799872428, 3.3994853000622243, 2.432480299845338, 2.6852002998348325, 3.965880800038576, 3.2316725999116898, 2.634471899829805, 2.4148711999878287, 3.298140700208023, 2.9324759000446647, 3.049938900163397, 2.5323687000200152, 2.4188702998217195]"	"[6.603966000024229, 7.181370500009507, 4.178457000060007, 5.105719699990004, 4.187914100009948, 2.669473099987954, 4.382243599975482, 3.832196499919519, 4.797923100180924, 2.8822822000365704, 6.531221800018102, 6.316859500017017, 3.3995135999284685, 2.4324890999123454, 2.68520459998399, 3.965885000070557, 3.23168159998022, 2.634477199986577, 2.414878499926999, 3.2981606000103056, 2.932484900113195, 3.0499442000873387, 2.532377399969846, 2.418874599970877]"	final100	1	2022-11-10_23h08.43.428	Intentional Binding	2022.2.4	59.93770077
0.7	1000	exp	2	0	24	8	225.6903231	226.6898258	226.6898258	226.6898258	space	0.4879661	227.9061803	228.2058057	228.2058057	228.2058057	228.2058057	400	25	"[6.603961699875072, 7.181363600073382, 4.178450099891052, 5.105714899953455, 4.187907999847084, 2.669467199826613, 4.382238200167194, 3.832189899869263, 4.7979181001428515, 2.882275199983269, 6.531213799957186, 6.316855799872428, 3.3994853000622243, 2.432480299845338, 2.6852002998348325, 3.965880800038576, 3.2316725999116898, 2.634471899829805, 2.4148711999878287, 3.298140700208023, 2.9324759000446647, 3.049938900163397, 2.5323687000200152, 2.4188702998217195, 2.351750700036064]"	"[6.603966000024229, 7.181370500009507, 4.178457000060007, 5.105719699990004, 4.187914100009948, 2.669473099987954, 4.382243599975482, 3.832196499919519, 4.797923100180924, 2.8822822000365704, 6.531221800018102, 6.316859500017017, 3.3995135999284685, 2.4324890999123454, 2.68520459998399, 3.965885000070557, 3.23168159998022, 2.634477199986577, 2.414878499926999, 3.2981606000103056, 2.932484900113195, 3.0499442000873387, 2.532377399969846, 2.418874599970877, 2.3517553999554366]"	final100	1	2022-11-10_23h08.43.428	Intentional Binding	2022.2.4	59.93770077
0.4	1000	exp	2	1	25	10	230.5558939	231.5551448	231.5551448	231.5551448	space	0.2929104	232.2716663		232.5718781	232.5718781	232.5718781	310	26	"[6.603961699875072, 7.181363600073382, 4.178450099891052, 5.105714899953455, 4.187907999847084, 2.669467199826613, 4.382238200167194, 3.832189899869263, 4.7979181001428515, 2.882275199983269, 6.531213799957186, 6.316855799872428, 3.3994853000622243, 2.432480299845338, 2.6852002998348325, 3.965880800038576, 3.2316725999116898, 2.634471899829805, 2.4148711999878287, 3.298140700208023, 2.9324759000446647, 3.049938900163397, 2.5323687000200152, 2.4188702998217195, 2.351750700036064, 5.08165240008384]"	"[6.603966000024229, 7.181370500009507, 4.178457000060007, 5.105719699990004, 4.187914100009948, 2.669473099987954, 4.382243599975482, 3.832196499919519, 4.797923100180924, 2.8822822000365704, 6.531221800018102, 6.316859500017017, 3.3995135999284685, 2.4324890999123454, 2.68520459998399, 3.965885000070557, 3.23168159998022, 2.634477199986577, 2.414878499926999, 3.2981606000103056, 2.932484900113195, 3.0499442000873387, 2.532377399969846, 2.418874599970877, 2.3517553999554366, 5.081658800132573]"	final100	1	2022-11-10_23h08.43.428	Intentional Binding	2022.2.4	59.93770077
0.7	1000	exp	2	2	26	11	237.6538042	238.6536306	238.6536306	238.6536306	space	0.2654124	239.6364441		239.9362286	239.9362286	239.9362286	500	27	"[6.603961699875072, 7.181363600073382, 4.178450099891052, 5.105714899953455, 4.187907999847084, 2.669467199826613, 4.382238200167194, 3.832189899869263, 4.7979181001428515, 2.882275199983269, 6.531213799957186, 6.316855799872428, 3.3994853000622243, 2.432480299845338, 2.6852002998348325, 3.965880800038576, 3.2316725999116898, 2.634471899829805, 2.4148711999878287, 3.298140700208023, 2.9324759000446647, 3.049938900163397, 2.5323687000200152, 2.4188702998217195, 2.351750700036064, 5.08165240008384, 2.5327602000907063]"	"[6.603966000024229, 7.181370500009507, 4.178457000060007, 5.105719699990004, 4.187914100009948, 2.669473099987954, 4.382243599975482, 3.832196499919519, 4.797923100180924, 2.8822822000365704, 6.531221800018102, 6.316859500017017, 3.3995135999284685, 2.4324890999123454, 2.68520459998399, 3.965885000070557, 3.23168159998022, 2.634477199986577, 2.414878499926999, 3.2981606000103056, 2.932484900113195, 3.0499442000873387, 2.532377399969846, 2.418874599970877, 2.3517553999554366, 5.081658800132573, 2.532767300028354]"	final100	1	2022-11-10_23h08.43.428	Intentional Binding	2022.2.4	59.93770077
0.4	1000	exp	2	3	27	4	242.469263	243.4691879	243.4691879	243.4691879	space	0.3963521	244.2848807		244.5850467	244.5850467	244.5850467	300	28	"[6.603961699875072, 7.181363600073382, 4.178450099891052, 5.105714899953455, 4.187907999847084, 2.669467199826613, 4.382238200167194, 3.832189899869263, 4.7979181001428515, 2.882275199983269, 6.531213799957186, 6.316855799872428, 3.3994853000622243, 2.432480299845338, 2.6852002998348325, 3.965880800038576, 3.2316725999116898, 2.634471899829805, 2.4148711999878287, 3.298140700208023, 2.9324759000446647, 3.049938900163397, 2.5323687000200152, 2.4188702998217195, 2.351750700036064, 5.08165240008384, 2.5327602000907063, 2.9323712999466807]"	"[6.603966000024229, 7.181370500009507, 4.178457000060007, 5.105719699990004, 4.187914100009948, 2.669473099987954, 4.382243599975482, 3.832196499919519, 4.797923100180924, 2.8822822000365704, 6.531221800018102, 6.316859500017017, 3.3995135999284685, 2.4324890999123454, 2.68520459998399, 3.965885000070557, 3.23168159998022, 2.634477199986577, 2.414878499926999, 3.2981606000103056, 2.932484900113195, 3.0499442000873387, 2.532377399969846, 2.418874599970877, 2.3517553999554366, 5.081658800132573, 2.532767300028354, 2.9323855000548065]"	final100	1	2022-11-10_23h08.43.428	Intentional Binding	2022.2.4	59.93770077
0.7	400	unexp	2	4	28	2	247.5182403	248.517868	248.517868	248.517868	space	0.28047	249.5170482		249.8174357	249.8174357	249.8174357	600	29	"[6.603961699875072, 7.181363600073382, 4.178450099891052, 5.105714899953455, 4.187907999847084, 2.669467199826613, 4.382238200167194, 3.832189899869263, 4.7979181001428515, 2.882275199983269, 6.531213799957186, 6.316855799872428, 3.3994853000622243, 2.432480299845338, 2.6852002998348325, 3.965880800038576, 3.2316725999116898, 2.634471899829805, 2.4148711999878287, 3.298140700208023, 2.9324759000446647, 3.049938900163397, 2.5323687000200152, 2.4188702998217195, 2.351750700036064, 5.08165240008384, 2.5327602000907063, 2.9323712999466807, 2.7491264001000673]"	"[6.603966000024229, 7.181370500009507, 4.178457000060007, 5.105719699990004, 4.187914100009948, 2.669473099987954, 4.382243599975482, 3.832196499919519, 4.797923100180924, 2.8822822000365704, 6.531221800018102, 6.316859500017017, 3.3995135999284685, 2.4324890999123454, 2.68520459998399, 3.965885000070557, 3.23168159998022, 2.634477199986577, 2.414878499926999, 3.2981606000103056, 2.932484900113195, 3.0499442000873387, 2.532377399969846, 2.418874599970877, 2.3517553999554366, 5.081658800132573, 2.532767300028354, 2.9323855000548065, 2.74913730006665]"	final100	1	2022-11-10_23h08.43.428	Intentional Binding	2022.2.4	59.93770077
0.1	1000	exp	2	5	29	3	252.5664713	253.5661445	253.5661445	253.5661445	space	0.2695413	253.966045		254.2658806	254.2658806	254.2658806	100	30	"[6.603961699875072, 7.181363600073382, 4.178450099891052, 5.105714899953455, 4.187907999847084, 2.669467199826613, 4.382238200167194, 3.832189899869263, 4.7979181001428515, 2.882275199983269, 6.531213799957186, 6.316855799872428, 3.3994853000622243, 2.432480299845338, 2.6852002998348325, 3.965880800038576, 3.2316725999116898, 2.634471899829805, 2.4148711999878287, 3.298140700208023, 2.9324759000446647, 3.049938900163397, 2.5323687000200152, 2.4188702998217195, 2.351750700036064, 5.08165240008384, 2.5327602000907063, 2.9323712999466807, 2.7491264001000673, 2.7485426999628544]"	"[6.603966000024229, 7.181370500009507, 4.178457000060007, 5.105719699990004, 4.187914100009948, 2.669473099987954, 4.382243599975482, 3.832196499919519, 4.797923100180924, 2.8822822000365704, 6.531221800018102, 6.316859500017017, 3.3995135999284685, 2.4324890999123454, 2.68520459998399, 3.965885000070557, 3.23168159998022, 2.634477199986577, 2.414878499926999, 3.2981606000103056, 2.932484900113195, 3.0499442000873387, 2.532377399969846, 2.418874599970877, 2.3517553999554366, 5.081658800132573, 2.532767300028354, 2.9323855000548065, 2.74913730006665, 2.748549999902025]"	final100	1	2022-11-10_23h08.43.428	Intentional Binding	2022.2.4	59.93770077
0.1	400	unexp	2	6	30	0	257.0156051	258.015652	258.015652	258.015652	space	0.2905884	258.4315577	258.7319114	258.7319114	258.7319114	258.7319114	200	31	"[6.603961699875072, 7.181363600073382, 4.178450099891052, 5.105714899953455, 4.187907999847084, 2.669467199826613, 4.382238200167194, 3.832189899869263, 4.7979181001428515, 2.882275199983269, 6.531213799957186, 6.316855799872428, 3.3994853000622243, 2.432480299845338, 2.6852002998348325, 3.965880800038576, 3.2316725999116898, 2.634471899829805, 2.4148711999878287, 3.298140700208023, 2.9324759000446647, 3.049938900163397, 2.5323687000200152, 2.4188702998217195, 2.351750700036064, 5.08165240008384, 2.5327602000907063, 2.9323712999466807, 2.7491264001000673, 2.7485426999628544, 2.4984617999289185]"	"[6.603966000024229, 7.181370500009507, 4.178457000060007, 5.105719699990004, 4.187914100009948, 2.669473099987954, 4.382243599975482, 3.832196499919519, 4.797923100180924, 2.8822822000365704, 6.531221800018102, 6.316859500017017, 3.3995135999284685, 2.4324890999123454, 2.68520459998399, 3.965885000070557, 3.23168159998022, 2.634477199986577, 2.414878499926999, 3.2981606000103056, 2.932484900113195, 3.0499442000873387, 2.532377399969846, 2.418874599970877, 2.3517553999554366, 5.081658800132573, 2.532767300028354, 2.9323855000548065, 2.74913730006665, 2.748549999902025, 2.4984677999746054]"	final100	1	2022-11-10_23h08.43.428	Intentional Binding	2022.2.4	59.93770077
0.4	400	unexp	2	7	31	1	261.2310651	262.2307262	262.2307262	262.2307262	space	0.3073046	262.9640336	263.2638852	263.2638852	263.2638852	263.2638852	300	32	"[6.603961699875072, 7.181363600073382, 4.178450099891052, 5.105714899953455, 4.187907999847084, 2.669467199826613, 4.382238200167194, 3.832189899869263, 4.7979181001428515, 2.882275199983269, 6.531213799957186, 6.316855799872428, 3.3994853000622243, 2.432480299845338, 2.6852002998348325, 3.965880800038576, 3.2316725999116898, 2.634471899829805, 2.4148711999878287, 3.298140700208023, 2.9324759000446647, 3.049938900163397, 2.5323687000200152, 2.4188702998217195, 2.351750700036064, 5.08165240008384, 2.5327602000907063, 2.9323712999466807, 2.7491264001000673, 2.7485426999628544, 2.4984617999289185, 3.697896199999377]"	"[6.603966000024229, 7.181370500009507, 4.178457000060007, 5.105719699990004, 4.187914100009948, 2.669473099987954, 4.382243599975482, 3.832196499919519, 4.797923100180924, 2.8822822000365704, 6.531221800018102, 6.316859500017017, 3.3995135999284685, 2.4324890999123454, 2.68520459998399, 3.965885000070557, 3.23168159998022, 2.634477199986577, 2.414878499926999, 3.2981606000103056, 2.932484900113195, 3.0499442000873387, 2.532377399969846, 2.418874599970877, 2.3517553999554366, 5.081658800132573, 2.532767300028354, 2.9323855000548065, 2.74913730006665, 2.748549999902025, 2.4984677999746054, 3.6979012999217957]"	final100	1	2022-11-10_23h08.43.428	Intentional Binding	2022.2.4	59.93770077
0.7	1000	exp	2	8	32	5	266.9632599	267.9625979	267.9625979	267.9625979	space	0.3236143	269.0123181	269.312733	269.312733	269.312733	269.312733	200	33	"[6.603961699875072, 7.181363600073382, 4.178450099891052, 5.105714899953455, 4.187907999847084, 2.669467199826613, 4.382238200167194, 3.832189899869263, 4.7979181001428515, 2.882275199983269, 6.531213799957186, 6.316855799872428, 3.3994853000622243, 2.432480299845338, 2.6852002998348325, 3.965880800038576, 3.2316725999116898, 2.634471899829805, 2.4148711999878287, 3.298140700208023, 2.9324759000446647, 3.049938900163397, 2.5323687000200152, 2.4188702998217195, 2.351750700036064, 5.08165240008384, 2.5327602000907063, 2.9323712999466807, 2.7491264001000673, 2.7485426999628544, 2.4984617999289185, 3.697896199999377, 5.2815539999864995]"	"[6.603966000024229, 7.181370500009507, 4.178457000060007, 5.105719699990004, 4.187914100009948, 2.669473099987954, 4.382243599975482, 3.832196499919519, 4.797923100180924, 2.8822822000365704, 6.531221800018102, 6.316859500017017, 3.3995135999284685, 2.4324890999123454, 2.68520459998399, 3.965885000070557, 3.23168159998022, 2.634477199986577, 2.414878499926999, 3.2981606000103056, 2.932484900113195, 3.0499442000873387, 2.532377399969846, 2.418874599970877, 2.3517553999554366, 5.081658800132573, 2.532767300028354, 2.9323855000548065, 2.74913730006665, 2.748549999902025, 2.4984677999746054, 3.6979012999217957, 5.28156129992567]"	final100	1	2022-11-10_23h08.43.428	Intentional Binding	2022.2.4	59.93770077
0.4	1000	exp	2	9	33	7	274.5945179	275.5943348	275.5943348	275.5943348	space	0.2870993	276.3108083		276.6139864	276.6139864	276.6139864	"100
"	34	"[6.603961699875072, 7.181363600073382, 4.178450099891052, 5.105714899953455, 4.187907999847084, 2.669467199826613, 4.382238200167194, 3.832189899869263, 4.7979181001428515, 2.882275199983269, 6.531213799957186, 6.316855799872428, 3.3994853000622243, 2.432480299845338, 2.6852002998348325, 3.965880800038576, 3.2316725999116898, 2.634471899829805, 2.4148711999878287, 3.298140700208023, 2.9324759000446647, 3.049938900163397, 2.5323687000200152, 2.4188702998217195, 2.351750700036064, 5.08165240008384, 2.5327602000907063, 2.9323712999466807, 2.7491264001000673, 2.7485426999628544, 2.4984617999289185, 3.697896199999377, 5.2815539999864995, 3.317779300035909]"	"[6.603966000024229, 7.181370500009507, 4.178457000060007, 5.105719699990004, 4.187914100009948, 2.669473099987954, 4.382243599975482, 3.832196499919519, 4.797923100180924, 2.8822822000365704, 6.531221800018102, 6.316859500017017, 3.3995135999284685, 2.4324890999123454, 2.68520459998399, 3.965885000070557, 3.23168159998022, 2.634477199986577, 2.414878499926999, 3.2981606000103056, 2.932484900113195, 3.0499442000873387, 2.532377399969846, 2.418874599970877, 2.3517553999554366, 5.081658800132573, 2.532767300028354, 2.9323855000548065, 2.74913730006665, 2.748549999902025, 2.4984677999746054, 3.6979012999217957, 5.28156129992567, 3.317807100014761]"	final100	1	2022-11-10_23h08.43.428	Intentional Binding	2022.2.4	59.93770077
0.1	1000	exp	2	10	34	6	279.9270209	280.9266306	280.9266306	280.9266306	space	0.6721648	281.725887		282.0256912	282.0256912	282.0256912	100	35	"[6.603961699875072, 7.181363600073382, 4.178450099891052, 5.105714899953455, 4.187907999847084, 2.669467199826613, 4.382238200167194, 3.832189899869263, 4.7979181001428515, 2.882275199983269, 6.531213799957186, 6.316855799872428, 3.3994853000622243, 2.432480299845338, 2.6852002998348325, 3.965880800038576, 3.2316725999116898, 2.634471899829805, 2.4148711999878287, 3.298140700208023, 2.9324759000446647, 3.049938900163397, 2.5323687000200152, 2.4188702998217195, 2.351750700036064, 5.08165240008384, 2.5327602000907063, 2.9323712999466807, 2.7491264001000673, 2.7485426999628544, 2.4984617999289185, 3.697896199999377, 5.2815539999864995, 3.317779300035909, 2.373412200016901]"	"[6.603966000024229, 7.181370500009507, 4.178457000060007, 5.105719699990004, 4.187914100009948, 2.669473099987954, 4.382243599975482, 3.832196499919519, 4.797923100180924, 2.8822822000365704, 6.531221800018102, 6.316859500017017, 3.3995135999284685, 2.4324890999123454, 2.68520459998399, 3.965885000070557, 3.23168159998022, 2.634477199986577, 2.414878499926999, 3.2981606000103056, 2.932484900113195, 3.0499442000873387, 2.532377399969846, 2.418874599970877, 2.3517553999554366, 5.081658800132573, 2.532767300028354, 2.9323855000548065, 2.74913730006665, 2.748549999902025, 2.4984677999746054, 3.6979012999217957, 5.28156129992567, 3.317807100014761, 2.373416200047359]"	final100	1	2022-11-10_23h08.43.428	Intentional Binding	2022.2.4	59.93770077
0.1	1000	exp	2	11	35	9	284.3921209	285.3913568	285.3913568	285.3913568	space	0.2857643	285.8079432		286.1078904	286.1078904	286.1078904	100	36	"[6.603961699875072, 7.181363600073382, 4.178450099891052, 5.105714899953455, 4.187907999847084, 2.669467199826613, 4.382238200167194, 3.832189899869263, 4.7979181001428515, 2.882275199983269, 6.531213799957186, 6.316855799872428, 3.3994853000622243, 2.432480299845338, 2.6852002998348325, 3.965880800038576, 3.2316725999116898, 2.634471899829805, 2.4148711999878287, 3.298140700208023, 2.9324759000446647, 3.049938900163397, 2.5323687000200152, 2.4188702998217195, 2.351750700036064, 5.08165240008384, 2.5327602000907063, 2.9323712999466807, 2.7491264001000673, 2.7485426999628544, 2.4984617999289185, 3.697896199999377, 5.2815539999864995, 3.317779300035909, 2.373412200016901, 1.9319732999429107]"	"[6.603966000024229, 7.181370500009507, 4.178457000060007, 5.105719699990004, 4.187914100009948, 2.669473099987954, 4.382243599975482, 3.832196499919519, 4.797923100180924, 2.8822822000365704, 6.531221800018102, 6.316859500017017, 3.3995135999284685, 2.4324890999123454, 2.68520459998399, 3.965885000070557, 3.23168159998022, 2.634477199986577, 2.414878499926999, 3.2981606000103056, 2.932484900113195, 3.0499442000873387, 2.532377399969846, 2.418874599970877, 2.3517553999554366, 5.081658800132573, 2.532767300028354, 2.9323855000548065, 2.74913730006665, 2.748549999902025, 2.4984677999746054, 3.6979012999217957, 5.28156129992567, 3.317807100014761, 2.373416200047359, 1.9319800999946892]"	final100	1	2022-11-10_23h08.43.428	Intentional Binding	2022.2.4	59.93770077
0.7	1000	exp	3	0	36	5	288.0410642	289.040499	289.040499	289.040499	space	0.3811894	290.1406117		290.4404817	290.4404817	290.4404817	250	37	"[6.603961699875072, 7.181363600073382, 4.178450099891052, 5.105714899953455, 4.187907999847084, 2.669467199826613, 4.382238200167194, 3.832189899869263, 4.7979181001428515, 2.882275199983269, 6.531213799957186, 6.316855799872428, 3.3994853000622243, 2.432480299845338, 2.6852002998348325, 3.965880800038576, 3.2316725999116898, 2.634471899829805, 2.4148711999878287, 3.298140700208023, 2.9324759000446647, 3.049938900163397, 2.5323687000200152, 2.4188702998217195, 2.351750700036064, 5.08165240008384, 2.5327602000907063, 2.9323712999466807, 2.7491264001000673, 2.7485426999628544, 2.4984617999289185, 3.697896199999377, 5.2815539999864995, 3.317779300035909, 2.373412200016901, 1.9319732999429107, 4.101432699942961]"	"[6.603966000024229, 7.181370500009507, 4.178457000060007, 5.105719699990004, 4.187914100009948, 2.669473099987954, 4.382243599975482, 3.832196499919519, 4.797923100180924, 2.8822822000365704, 6.531221800018102, 6.316859500017017, 3.3995135999284685, 2.4324890999123454, 2.68520459998399, 3.965885000070557, 3.23168159998022, 2.634477199986577, 2.414878499926999, 3.2981606000103056, 2.932484900113195, 3.0499442000873387, 2.532377399969846, 2.418874599970877, 2.3517553999554366, 5.081658800132573, 2.532767300028354, 2.9323855000548065, 2.74913730006665, 2.748549999902025, 2.4984677999746054, 3.6979012999217957, 5.28156129992567, 3.317807100014761, 2.373416200047359, 1.9319800999946892, 4.101436999859288]"	final100	1	2022-11-10_23h08.43.428	Intentional Binding	2022.2.4	59.93770077
0.1	1000	exp	3	1	37	3	294.5396411	295.5390355	295.5390355	295.5390355	space	0.301182	295.9725322	296.2722249	296.2722249	296.2722249	296.2722249	250	38	"[6.603961699875072, 7.181363600073382, 4.178450099891052, 5.105714899953455, 4.187907999847084, 2.669467199826613, 4.382238200167194, 3.832189899869263, 4.7979181001428515, 2.882275199983269, 6.531213799957186, 6.316855799872428, 3.3994853000622243, 2.432480299845338, 2.6852002998348325, 3.965880800038576, 3.2316725999116898, 2.634471899829805, 2.4148711999878287, 3.298140700208023, 2.9324759000446647, 3.049938900163397, 2.5323687000200152, 2.4188702998217195, 2.351750700036064, 5.08165240008384, 2.5327602000907063, 2.9323712999466807, 2.7491264001000673, 2.7485426999628544, 2.4984617999289185, 3.697896199999377, 5.2815539999864995, 3.317779300035909, 2.373412200016901, 1.9319732999429107, 4.101432699942961, 3.047119199996814]"	"[6.603966000024229, 7.181370500009507, 4.178457000060007, 5.105719699990004, 4.187914100009948, 2.669473099987954, 4.382243599975482, 3.832196499919519, 4.797923100180924, 2.8822822000365704, 6.531221800018102, 6.316859500017017, 3.3995135999284685, 2.4324890999123454, 2.68520459998399, 3.965885000070557, 3.23168159998022, 2.634477199986577, 2.414878499926999, 3.2981606000103056, 2.932484900113195, 3.0499442000873387, 2.532377399969846, 2.418874599970877, 2.3517553999554366, 5.081658800132573, 2.532767300028354, 2.9323855000548065, 2.74913730006665, 2.748549999902025, 2.4984677999746054, 3.6979012999217957, 5.28156129992567, 3.317807100014761, 2.373416200047359, 1.9319800999946892, 4.101436999859288, 3.047125400044024]"	final100	1	2022-11-10_23h08.43.428	Intentional Binding	2022.2.4	59.93770077
0.7	1000	exp	3	2	38	8	299.3212639	300.3212815	300.3212815	300.3212815	space	0.5608717	301.6042213		301.9040475	301.9040475	301.9040475	350	39	"[6.603961699875072, 7.181363600073382, 4.178450099891052, 5.105714899953455, 4.187907999847084, 2.669467199826613, 4.382238200167194, 3.832189899869263, 4.7979181001428515, 2.882275199983269, 6.531213799957186, 6.316855799872428, 3.3994853000622243, 2.432480299845338, 2.6852002998348325, 3.965880800038576, 3.2316725999116898, 2.634471899829805, 2.4148711999878287, 3.298140700208023, 2.9324759000446647, 3.049938900163397, 2.5323687000200152, 2.4188702998217195, 2.351750700036064, 5.08165240008384, 2.5327602000907063, 2.9323712999466807, 2.7491264001000673, 2.7485426999628544, 2.4984617999289185, 3.697896199999377, 5.2815539999864995, 3.317779300035909, 2.373412200016901, 1.9319732999429107, 4.101432699942961, 3.047119199996814, 3.8311058001127094]"	"[6.603966000024229, 7.181370500009507, 4.178457000060007, 5.105719699990004, 4.187914100009948, 2.669473099987954, 4.382243599975482, 3.832196499919519, 4.797923100180924, 2.8822822000365704, 6.531221800018102, 6.316859500017017, 3.3995135999284685, 2.4324890999123454, 2.68520459998399, 3.965885000070557, 3.23168159998022, 2.634477199986577, 2.414878499926999, 3.2981606000103056, 2.932484900113195, 3.0499442000873387, 2.532377399969846, 2.418874599970877, 2.3517553999554366, 5.081658800132573, 2.532767300028354, 2.9323855000548065, 2.74913730006665, 2.748549999902025, 2.4984677999746054, 3.6979012999217957, 5.28156129992567, 3.317807100014761, 2.373416200047359, 1.9319800999946892, 4.101436999859288, 3.047125400044024, 3.831112400162965]"	final100	1	2022-11-10_23h08.43.428	Intentional Binding	2022.2.4	59.93770077
0.4	400	unexp	3	3	39	1	305.7363072	306.7361212	306.7361212	306.7361212	space	0.2786976	307.4359776		307.7359869	307.7359869	307.7359869	400	40	"[6.603961699875072, 7.181363600073382, 4.178450099891052, 5.105714899953455, 4.187907999847084, 2.669467199826613, 4.382238200167194, 3.832189899869263, 4.7979181001428515, 2.882275199983269, 6.531213799957186, 6.316855799872428, 3.3994853000622243, 2.432480299845338, 2.6852002998348325, 3.965880800038576, 3.2316725999116898, 2.634471899829805, 2.4148711999878287, 3.298140700208023, 2.9324759000446647, 3.049938900163397, 2.5323687000200152, 2.4188702998217195, 2.351750700036064, 5.08165240008384, 2.5327602000907063, 2.9323712999466807, 2.7491264001000673, 2.7485426999628544, 2.4984617999289185, 3.697896199999377, 5.2815539999864995, 3.317779300035909, 2.373412200016901, 1.9319732999429107, 4.101432699942961, 3.047119199996814, 3.8311058001127094, 2.8996447999961674]"	"[6.603966000024229, 7.181370500009507, 4.178457000060007, 5.105719699990004, 4.187914100009948, 2.669473099987954, 4.382243599975482, 3.832196499919519, 4.797923100180924, 2.8822822000365704, 6.531221800018102, 6.316859500017017, 3.3995135999284685, 2.4324890999123454, 2.68520459998399, 3.965885000070557, 3.23168159998022, 2.634477199986577, 2.414878499926999, 3.2981606000103056, 2.932484900113195, 3.0499442000873387, 2.532377399969846, 2.418874599970877, 2.3517553999554366, 5.081658800132573, 2.532767300028354, 2.9323855000548065, 2.74913730006665, 2.748549999902025, 2.4984677999746054, 3.6979012999217957, 5.28156129992567, 3.317807100014761, 2.373416200047359, 1.9319800999946892, 4.101436999859288, 3.047125400044024, 3.831112400162965, 2.899651400046423]"	final100	1	2022-11-10_23h08.43.428	Intentional Binding	2022.2.4	59.93770077
0.1	1000	exp	3	4	40	6	310.635496	311.6349854	311.6349854	311.6349854	space	0.3496454	312.101487		312.4017514	312.4017514	312.4017514	50	41	"[6.603961699875072, 7.181363600073382, 4.178450099891052, 5.105714899953455, 4.187907999847084, 2.669467199826613, 4.382238200167194, 3.832189899869263, 4.7979181001428515, 2.882275199983269, 6.531213799957186, 6.316855799872428, 3.3994853000622243, 2.432480299845338, 2.6852002998348325, 3.965880800038576, 3.2316725999116898, 2.634471899829805, 2.4148711999878287, 3.298140700208023, 2.9324759000446647, 3.049938900163397, 2.5323687000200152, 2.4188702998217195, 2.351750700036064, 5.08165240008384, 2.5327602000907063, 2.9323712999466807, 2.7491264001000673, 2.7485426999628544, 2.4984617999289185, 3.697896199999377, 5.2815539999864995, 3.317779300035909, 2.373412200016901, 1.9319732999429107, 4.101432699942961, 3.047119199996814, 3.8311058001127094, 2.8996447999961674, 3.750735100125894]"	"[6.603966000024229, 7.181370500009507, 4.178457000060007, 5.105719699990004, 4.187914100009948, 2.669473099987954, 4.382243599975482, 3.832196499919519, 4.797923100180924, 2.8822822000365704, 6.531221800018102, 6.316859500017017, 3.3995135999284685, 2.4324890999123454, 2.68520459998399, 3.965885000070557, 3.23168159998022, 2.634477199986577, 2.414878499926999, 3.2981606000103056, 2.932484900113195, 3.0499442000873387, 2.532377399969846, 2.418874599970877, 2.3517553999554366, 5.081658800132573, 2.532767300028354, 2.9323855000548065, 2.74913730006665, 2.748549999902025, 2.4984677999746054, 3.6979012999217957, 5.28156129992567, 3.317807100014761, 2.373416200047359, 1.9319800999946892, 4.101436999859288, 3.047125400044024, 3.831112400162965, 2.899651400046423, 3.7507400999311358]"	final100	1	2022-11-10_23h08.43.428	Intentional Binding	2022.2.4	59.93770077
0.7	400	unexp	3	5	41	2	316.1514886	317.1501986	317.1501986	317.1667703	space	1.1095799	318.9837935	319.2833002	319.2833002	319.2833002	319.2833002	100	42	"[6.603961699875072, 7.181363600073382, 4.178450099891052, 5.105714899953455, 4.187907999847084, 2.669467199826613, 4.382238200167194, 3.832189899869263, 4.7979181001428515, 2.882275199983269, 6.531213799957186, 6.316855799872428, 3.3994853000622243, 2.432480299845338, 2.6852002998348325, 3.965880800038576, 3.2316725999116898, 2.634471899829805, 2.4148711999878287, 3.298140700208023, 2.9324759000446647, 3.049938900163397, 2.5323687000200152, 2.4188702998217195, 2.351750700036064, 5.08165240008384, 2.5327602000907063, 2.9323712999466807, 2.7491264001000673, 2.7485426999628544, 2.4984617999289185, 3.697896199999377, 5.2815539999864995, 3.317779300035909, 2.373412200016901, 1.9319732999429107, 4.101432699942961, 3.047119199996814, 3.8311058001127094, 2.8996447999961674, 3.750735100125894, 3.198045000201091]"	"[6.603966000024229, 7.181370500009507, 4.178457000060007, 5.105719699990004, 4.187914100009948, 2.669473099987954, 4.382243599975482, 3.832196499919519, 4.797923100180924, 2.8822822000365704, 6.531221800018102, 6.316859500017017, 3.3995135999284685, 2.4324890999123454, 2.68520459998399, 3.965885000070557, 3.23168159998022, 2.634477199986577, 2.414878499926999, 3.2981606000103056, 2.932484900113195, 3.0499442000873387, 2.532377399969846, 2.418874599970877, 2.3517553999554366, 5.081658800132573, 2.532767300028354, 2.9323855000548065, 2.74913730006665, 2.748549999902025, 2.4984677999746054, 3.6979012999217957, 5.28156129992567, 3.317807100014761, 2.373416200047359, 1.9319800999946892, 4.101436999859288, 3.047125400044024, 3.831112400162965, 2.899651400046423, 3.7507400999311358, 3.1980686001479626]"	final100	1	2022-11-10_23h08.43.428	Intentional Binding	2022.2.4	59.93770077
0.1	1000	exp	3	6	42	9	322.4826887	323.4822353	323.4822353	323.4822353	space	1.1173017	324.7316304		325.0314644	325.0314644	325.0314644	11	43	"[6.603961699875072, 7.181363600073382, 4.178450099891052, 5.105714899953455, 4.187907999847084, 2.669467199826613, 4.382238200167194, 3.832189899869263, 4.7979181001428515, 2.882275199983269, 6.531213799957186, 6.316855799872428, 3.3994853000622243, 2.432480299845338, 2.6852002998348325, 3.965880800038576, 3.2316725999116898, 2.634471899829805, 2.4148711999878287, 3.298140700208023, 2.9324759000446647, 3.049938900163397, 2.5323687000200152, 2.4188702998217195, 2.351750700036064, 5.08165240008384, 2.5327602000907063, 2.9323712999466807, 2.7491264001000673, 2.7485426999628544, 2.4984617999289185, 3.697896199999377, 5.2815539999864995, 3.317779300035909, 2.373412200016901, 1.9319732999429107, 4.101432699942961, 3.047119199996814, 3.8311058001127094, 2.8996447999961674, 3.750735100125894, 3.198045000201091, 3.1908649001270533]"	"[6.603966000024229, 7.181370500009507, 4.178457000060007, 5.105719699990004, 4.187914100009948, 2.669473099987954, 4.382243599975482, 3.832196499919519, 4.797923100180924, 2.8822822000365704, 6.531221800018102, 6.316859500017017, 3.3995135999284685, 2.4324890999123454, 2.68520459998399, 3.965885000070557, 3.23168159998022, 2.634477199986577, 2.414878499926999, 3.2981606000103056, 2.932484900113195, 3.0499442000873387, 2.532377399969846, 2.418874599970877, 2.3517553999554366, 5.081658800132573, 2.532767300028354, 2.9323855000548065, 2.74913730006665, 2.748549999902025, 2.4984677999746054, 3.6979012999217957, 5.28156129992567, 3.317807100014761, 2.373416200047359, 1.9319800999946892, 4.101436999859288, 3.047125400044024, 3.831112400162965, 2.899651400046423, 3.7507400999311358, 3.1980686001479626, 3.190869700163603]"	final100	1	2022-11-10_23h08.43.428	Intentional Binding	2022.2.4	59.93770077
0.7	1000	exp	3	7	43	11	328.214674	329.2138734	329.2138734	329.2138734	space	0.4947998	330.4302422		330.7301972	330.7301972	330.7301972	350	44	"[6.603961699875072, 7.181363600073382, 4.178450099891052, 5.105714899953455, 4.187907999847084, 2.669467199826613, 4.382238200167194, 3.832189899869263, 4.7979181001428515, 2.882275199983269, 6.531213799957186, 6.316855799872428, 3.3994853000622243, 2.432480299845338, 2.6852002998348325, 3.965880800038576, 3.2316725999116898, 2.634471899829805, 2.4148711999878287, 3.298140700208023, 2.9324759000446647, 3.049938900163397, 2.5323687000200152, 2.4188702998217195, 2.351750700036064, 5.08165240008384, 2.5327602000907063, 2.9323712999466807, 2.7491264001000673, 2.7485426999628544, 2.4984617999289185, 3.697896199999377, 5.2815539999864995, 3.317779300035909, 2.373412200016901, 1.9319732999429107, 4.101432699942961, 3.047119199996814, 3.8311058001127094, 2.8996447999961674, 3.750735100125894, 3.198045000201091, 3.1908649001270533, 4.316866799956188]"	"[6.603966000024229, 7.181370500009507, 4.178457000060007, 5.105719699990004, 4.187914100009948, 2.669473099987954, 4.382243599975482, 3.832196499919519, 4.797923100180924, 2.8822822000365704, 6.531221800018102, 6.316859500017017, 3.3995135999284685, 2.4324890999123454, 2.68520459998399, 3.965885000070557, 3.23168159998022, 2.634477199986577, 2.414878499926999, 3.2981606000103056, 2.932484900113195, 3.0499442000873387, 2.532377399969846, 2.418874599970877, 2.3517553999554366, 5.081658800132573, 2.532767300028354, 2.9323855000548065, 2.74913730006665, 2.748549999902025, 2.4984677999746054, 3.6979012999217957, 5.28156129992567, 3.317807100014761, 2.373416200047359, 1.9319800999946892, 4.101436999859288, 3.047125400044024, 3.831112400162965, 2.899651400046423, 3.7507400999311358, 3.1980686001479626, 3.190869700163603, 4.3168707001022995]"	final100	1	2022-11-10_23h08.43.428	Intentional Binding	2022.2.4	59.93770077
0.4	1000	exp	3	8	44	7	335.0469245	336.0455947	336.0455947	336.0622029	space	0.2585633	336.7284434		337.0286197	337.0286197	337.0286197	110	45	"[6.603961699875072, 7.181363600073382, 4.178450099891052, 5.105714899953455, 4.187907999847084, 2.669467199826613, 4.382238200167194, 3.832189899869263, 4.7979181001428515, 2.882275199983269, 6.531213799957186, 6.316855799872428, 3.3994853000622243, 2.432480299845338, 2.6852002998348325, 3.965880800038576, 3.2316725999116898, 2.634471899829805, 2.4148711999878287, 3.298140700208023, 2.9324759000446647, 3.049938900163397, 2.5323687000200152, 2.4188702998217195, 2.351750700036064, 5.08165240008384, 2.5327602000907063, 2.9323712999466807, 2.7491264001000673, 2.7485426999628544, 2.4984617999289185, 3.697896199999377, 5.2815539999864995, 3.317779300035909, 2.373412200016901, 1.9319732999429107, 4.101432699942961, 3.047119199996814, 3.8311058001127094, 2.8996447999961674, 3.750735100125894, 3.198045000201091, 3.1908649001270533, 4.316866799956188, 4.4317087000235915]"	"[6.603966000024229, 7.181370500009507, 4.178457000060007, 5.105719699990004, 4.187914100009948, 2.669473099987954, 4.382243599975482, 3.832196499919519, 4.797923100180924, 2.8822822000365704, 6.531221800018102, 6.316859500017017, 3.3995135999284685, 2.4324890999123454, 2.68520459998399, 3.965885000070557, 3.23168159998022, 2.634477199986577, 2.414878499926999, 3.2981606000103056, 2.932484900113195, 3.0499442000873387, 2.532377399969846, 2.418874599970877, 2.3517553999554366, 5.081658800132573, 2.532767300028354, 2.9323855000548065, 2.74913730006665, 2.748549999902025, 2.4984677999746054, 3.6979012999217957, 5.28156129992567, 3.317807100014761, 2.373416200047359, 1.9319800999946892, 4.101436999859288, 3.047125400044024, 3.831112400162965, 2.899651400046423, 3.7507400999311358, 3.1980686001479626, 3.190869700163603, 4.3168707001022995, 4.431724899914116]"	final100	1	2022-11-10_23h08.43.428	Intentional Binding	2022.2.4	59.93770077
0.4	1000	exp	3	9	45	4	341.4606996	342.4608241	342.4608241	342.4608241	space	0.2894693	343.1773134	343.4767979	343.4767979	343.4767979	343.4767979	200	46	"[6.603961699875072, 7.181363600073382, 4.178450099891052, 5.105714899953455, 4.187907999847084, 2.669467199826613, 4.382238200167194, 3.832189899869263, 4.7979181001428515, 2.882275199983269, 6.531213799957186, 6.316855799872428, 3.3994853000622243, 2.432480299845338, 2.6852002998348325, 3.965880800038576, 3.2316725999116898, 2.634471899829805, 2.4148711999878287, 3.298140700208023, 2.9324759000446647, 3.049938900163397, 2.5323687000200152, 2.4188702998217195, 2.351750700036064, 5.08165240008384, 2.5327602000907063, 2.9323712999466807, 2.7491264001000673, 2.7485426999628544, 2.4984617999289185, 3.697896199999377, 5.2815539999864995, 3.317779300035909, 2.373412200016901, 1.9319732999429107, 4.101432699942961, 3.047119199996814, 3.8311058001127094, 2.8996447999961674, 3.750735100125894, 3.198045000201091, 3.1908649001270533, 4.316866799956188, 4.4317087000235915, 2.533314700005576]"	"[6.603966000024229, 7.181370500009507, 4.178457000060007, 5.105719699990004, 4.187914100009948, 2.669473099987954, 4.382243599975482, 3.832196499919519, 4.797923100180924, 2.8822822000365704, 6.531221800018102, 6.316859500017017, 3.3995135999284685, 2.4324890999123454, 2.68520459998399, 3.965885000070557, 3.23168159998022, 2.634477199986577, 2.414878499926999, 3.2981606000103056, 2.932484900113195, 3.0499442000873387, 2.532377399969846, 2.418874599970877, 2.3517553999554366, 5.081658800132573, 2.532767300028354, 2.9323855000548065, 2.74913730006665, 2.748549999902025, 2.4984677999746054, 3.6979012999217957, 5.28156129992567, 3.317807100014761, 2.373416200047359, 1.9319800999946892, 4.101436999859288, 3.047125400044024, 3.831112400162965, 2.899651400046423, 3.7507400999311358, 3.1980686001479626, 3.190869700163603, 4.3168707001022995, 4.431724899914116, 2.5333199000451714]"	final100	1	2022-11-10_23h08.43.428	Intentional Binding	2022.2.4	59.93770077
0.1	400	unexp	3	10	46	0	346.0098737	347.0095089	347.0095089	347.0095089	space	0.3378175	347.4760255		347.7758588	347.7758588	347.7758588	100	47	"[6.603961699875072, 7.181363600073382, 4.178450099891052, 5.105714899953455, 4.187907999847084, 2.669467199826613, 4.382238200167194, 3.832189899869263, 4.7979181001428515, 2.882275199983269, 6.531213799957186, 6.316855799872428, 3.3994853000622243, 2.432480299845338, 2.6852002998348325, 3.965880800038576, 3.2316725999116898, 2.634471899829805, 2.4148711999878287, 3.298140700208023, 2.9324759000446647, 3.049938900163397, 2.5323687000200152, 2.4188702998217195, 2.351750700036064, 5.08165240008384, 2.5327602000907063, 2.9323712999466807, 2.7491264001000673, 2.7485426999628544, 2.4984617999289185, 3.697896199999377, 5.2815539999864995, 3.317779300035909, 2.373412200016901, 1.9319732999429107, 4.101432699942961, 3.047119199996814, 3.8311058001127094, 2.8996447999961674, 3.750735100125894, 3.198045000201091, 3.1908649001270533, 4.316866799956188, 4.4317087000235915, 2.533314700005576, 2.948166500078514]"	"[6.603966000024229, 7.181370500009507, 4.178457000060007, 5.105719699990004, 4.187914100009948, 2.669473099987954, 4.382243599975482, 3.832196499919519, 4.797923100180924, 2.8822822000365704, 6.531221800018102, 6.316859500017017, 3.3995135999284685, 2.4324890999123454, 2.68520459998399, 3.965885000070557, 3.23168159998022, 2.634477199986577, 2.414878499926999, 3.2981606000103056, 2.932484900113195, 3.0499442000873387, 2.532377399969846, 2.418874599970877, 2.3517553999554366, 5.081658800132573, 2.532767300028354, 2.9323855000548065, 2.74913730006665, 2.748549999902025, 2.4984677999746054, 3.6979012999217957, 5.28156129992567, 3.317807100014761, 2.373416200047359, 1.9319800999946892, 4.101436999859288, 3.047125400044024, 3.831112400162965, 2.899651400046423, 3.7507400999311358, 3.1980686001479626, 3.190869700163603, 4.3168707001022995, 4.431724899914116, 2.5333199000451714, 2.948173600016162]"	final100	1	2022-11-10_23h08.43.428	Intentional Binding	2022.2.4	59.93770077
0.4	1000	exp	3	11	47	10	350.7250179	351.724853	351.724853	351.724853	space	0.5257323	352.6753491		352.974655	352.974655	352.974655	100	48	"[6.603961699875072, 7.181363600073382, 4.178450099891052, 5.105714899953455, 4.187907999847084, 2.669467199826613, 4.382238200167194, 3.832189899869263, 4.7979181001428515, 2.882275199983269, 6.531213799957186, 6.316855799872428, 3.3994853000622243, 2.432480299845338, 2.6852002998348325, 3.965880800038576, 3.2316725999116898, 2.634471899829805, 2.4148711999878287, 3.298140700208023, 2.9324759000446647, 3.049938900163397, 2.5323687000200152, 2.4188702998217195, 2.351750700036064, 5.08165240008384, 2.5327602000907063, 2.9323712999466807, 2.7491264001000673, 2.7485426999628544, 2.4984617999289185, 3.697896199999377, 5.2815539999864995, 3.317779300035909, 2.373412200016901, 1.9319732999429107, 4.101432699942961, 3.047119199996814, 3.8311058001127094, 2.8996447999961674, 3.750735100125894, 3.198045000201091, 3.1908649001270533, 4.316866799956188, 4.4317087000235915, 2.533314700005576, 2.948166500078514, 3.3146530999802053]"	"[6.603966000024229, 7.181370500009507, 4.178457000060007, 5.105719699990004, 4.187914100009948, 2.669473099987954, 4.382243599975482, 3.832196499919519, 4.797923100180924, 2.8822822000365704, 6.531221800018102, 6.316859500017017, 3.3995135999284685, 2.4324890999123454, 2.68520459998399, 3.965885000070557, 3.23168159998022, 2.634477199986577, 2.414878499926999, 3.2981606000103056, 2.932484900113195, 3.0499442000873387, 2.532377399969846, 2.418874599970877, 2.3517553999554366, 5.081658800132573, 2.532767300028354, 2.9323855000548065, 2.74913730006665, 2.748549999902025, 2.4984677999746054, 3.6979012999217957, 5.28156129992567, 3.317807100014761, 2.373416200047359, 1.9319800999946892, 4.101436999859288, 3.047125400044024, 3.831112400162965, 2.899651400046423, 3.7507400999311358, 3.1980686001479626, 3.190869700163603, 4.3168707001022995, 4.431724899914116, 2.5333199000451714, 2.948173600016162, 3.3146605000365525]"	final100	1	2022-11-10_23h08.43.428	Intentional Binding	2022.2.4	59.93770077
0.4	400	unexp	4	0	48	1	356.2908882	357.2903278	357.2903278	357.2903278	space	0.6459795	358.3564231	358.6569936	358.6569936	358.6569936	358.6569936	150	49	"[6.603961699875072, 7.181363600073382, 4.178450099891052, 5.105714899953455, 4.187907999847084, 2.669467199826613, 4.382238200167194, 3.832189899869263, 4.7979181001428515, 2.882275199983269, 6.531213799957186, 6.316855799872428, 3.3994853000622243, 2.432480299845338, 2.6852002998348325, 3.965880800038576, 3.2316725999116898, 2.634471899829805, 2.4148711999878287, 3.298140700208023, 2.9324759000446647, 3.049938900163397, 2.5323687000200152, 2.4188702998217195, 2.351750700036064, 5.08165240008384, 2.5327602000907063, 2.9323712999466807, 2.7491264001000673, 2.7485426999628544, 2.4984617999289185, 3.697896199999377, 5.2815539999864995, 3.317779300035909, 2.373412200016901, 1.9319732999429107, 4.101432699942961, 3.047119199996814, 3.8311058001127094, 2.8996447999961674, 3.750735100125894, 3.198045000201091, 3.1908649001270533, 4.316866799956188, 4.4317087000235915, 2.533314700005576, 2.948166500078514, 3.3146530999802053, 3.60208350000903]"	"[6.603966000024229, 7.181370500009507, 4.178457000060007, 5.105719699990004, 4.187914100009948, 2.669473099987954, 4.382243599975482, 3.832196499919519, 4.797923100180924, 2.8822822000365704, 6.531221800018102, 6.316859500017017, 3.3995135999284685, 2.4324890999123454, 2.68520459998399, 3.965885000070557, 3.23168159998022, 2.634477199986577, 2.414878499926999, 3.2981606000103056, 2.932484900113195, 3.0499442000873387, 2.532377399969846, 2.418874599970877, 2.3517553999554366, 5.081658800132573, 2.532767300028354, 2.9323855000548065, 2.74913730006665, 2.748549999902025, 2.4984677999746054, 3.6979012999217957, 5.28156129992567, 3.317807100014761, 2.373416200047359, 1.9319800999946892, 4.101436999859288, 3.047125400044024, 3.831112400162965, 2.899651400046423, 3.7507400999311358, 3.1980686001479626, 3.190869700163603, 4.3168707001022995, 4.431724899914116, 2.5333199000451714, 2.948173600016162, 3.3146605000365525, 3.602087200153619]"	final100	1	2022-11-10_23h08.43.428	Intentional Binding	2022.2.4	59.93770077
0.1	1000	exp	4	1	49	9	362.2560121	363.2553535	363.2553535	363.2553535	space	0.2668538	363.6386159		363.9386673	363.9386673	363.9386673	100	50	"[6.603961699875072, 7.181363600073382, 4.178450099891052, 5.105714899953455, 4.187907999847084, 2.669467199826613, 4.382238200167194, 3.832189899869263, 4.7979181001428515, 2.882275199983269, 6.531213799957186, 6.316855799872428, 3.3994853000622243, 2.432480299845338, 2.6852002998348325, 3.965880800038576, 3.2316725999116898, 2.634471899829805, 2.4148711999878287, 3.298140700208023, 2.9324759000446647, 3.049938900163397, 2.5323687000200152, 2.4188702998217195, 2.351750700036064, 5.08165240008384, 2.5327602000907063, 2.9323712999466807, 2.7491264001000673, 2.7485426999628544, 2.4984617999289185, 3.697896199999377, 5.2815539999864995, 3.317779300035909, 2.373412200016901, 1.9319732999429107, 4.101432699942961, 3.047119199996814, 3.8311058001127094, 2.8996447999961674, 3.750735100125894, 3.198045000201091, 3.1908649001270533, 4.316866799956188, 4.4317087000235915, 2.533314700005576, 2.948166500078514, 3.3146530999802053, 3.60208350000903, 3.365073700202629]"	"[6.603966000024229, 7.181370500009507, 4.178457000060007, 5.105719699990004, 4.187914100009948, 2.669473099987954, 4.382243599975482, 3.832196499919519, 4.797923100180924, 2.8822822000365704, 6.531221800018102, 6.316859500017017, 3.3995135999284685, 2.4324890999123454, 2.68520459998399, 3.965885000070557, 3.23168159998022, 2.634477199986577, 2.414878499926999, 3.2981606000103056, 2.932484900113195, 3.0499442000873387, 2.532377399969846, 2.418874599970877, 2.3517553999554366, 5.081658800132573, 2.532767300028354, 2.9323855000548065, 2.74913730006665, 2.748549999902025, 2.4984677999746054, 3.6979012999217957, 5.28156129992567, 3.317807100014761, 2.373416200047359, 1.9319800999946892, 4.101436999859288, 3.047125400044024, 3.831112400162965, 2.899651400046423, 3.7507400999311358, 3.1980686001479626, 3.190869700163603, 4.3168707001022995, 4.431724899914116, 2.5333199000451714, 2.948173600016162, 3.3146605000365525, 3.602087200153619, 3.3650813000276685]"	final100	1	2022-11-10_23h08.43.428	Intentional Binding	2022.2.4	59.93770077
0.7	1000	exp	4	2	50	8	367.3042676	368.3039515	368.3039515	368.3039515	space	1.3263548	370.3534055	370.6538791	370.6538791	370.6538791	370.6538791	100	51	"[6.603961699875072, 7.181363600073382, 4.178450099891052, 5.105714899953455, 4.187907999847084, 2.669467199826613, 4.382238200167194, 3.832189899869263, 4.7979181001428515, 2.882275199983269, 6.531213799957186, 6.316855799872428, 3.3994853000622243, 2.432480299845338, 2.6852002998348325, 3.965880800038576, 3.2316725999116898, 2.634471899829805, 2.4148711999878287, 3.298140700208023, 2.9324759000446647, 3.049938900163397, 2.5323687000200152, 2.4188702998217195, 2.351750700036064, 5.08165240008384, 2.5327602000907063, 2.9323712999466807, 2.7491264001000673, 2.7485426999628544, 2.4984617999289185, 3.697896199999377, 5.2815539999864995, 3.317779300035909, 2.373412200016901, 1.9319732999429107, 4.101432699942961, 3.047119199996814, 3.8311058001127094, 2.8996447999961674, 3.750735100125894, 3.198045000201091, 3.1908649001270533, 4.316866799956188, 4.4317087000235915, 2.533314700005576, 2.948166500078514, 3.3146530999802053, 3.60208350000903, 3.365073700202629, 2.2837172001600266]"	"[6.603966000024229, 7.181370500009507, 4.178457000060007, 5.105719699990004, 4.187914100009948, 2.669473099987954, 4.382243599975482, 3.832196499919519, 4.797923100180924, 2.8822822000365704, 6.531221800018102, 6.316859500017017, 3.3995135999284685, 2.4324890999123454, 2.68520459998399, 3.965885000070557, 3.23168159998022, 2.634477199986577, 2.414878499926999, 3.2981606000103056, 2.932484900113195, 3.0499442000873387, 2.532377399969846, 2.418874599970877, 2.3517553999554366, 5.081658800132573, 2.532767300028354, 2.9323855000548065, 2.74913730006665, 2.748549999902025, 2.4984677999746054, 3.6979012999217957, 5.28156129992567, 3.317807100014761, 2.373416200047359, 1.9319800999946892, 4.101436999859288, 3.047125400044024, 3.831112400162965, 2.899651400046423, 3.7507400999311358, 3.1980686001479626, 3.190869700163603, 4.3168707001022995, 4.431724899914116, 2.5333199000451714, 2.948173600016162, 3.3146605000365525, 3.602087200153619, 3.3650813000276685, 2.283738400088623]"	final100	1	2022-11-10_23h08.43.428	Intentional Binding	2022.2.4	59.93770077
0.7	1000	exp	4	3	51	5	372.9370512	373.9360579	373.9360579	373.9360579	space	0.3810905	375.0357091		375.3361295	375.3361295	375.3361295	150	52	"[6.603961699875072, 7.181363600073382, 4.178450099891052, 5.105714899953455, 4.187907999847084, 2.669467199826613, 4.382238200167194, 3.832189899869263, 4.7979181001428515, 2.882275199983269, 6.531213799957186, 6.316855799872428, 3.3994853000622243, 2.432480299845338, 2.6852002998348325, 3.965880800038576, 3.2316725999116898, 2.634471899829805, 2.4148711999878287, 3.298140700208023, 2.9324759000446647, 3.049938900163397, 2.5323687000200152, 2.4188702998217195, 2.351750700036064, 5.08165240008384, 2.5327602000907063, 2.9323712999466807, 2.7491264001000673, 2.7485426999628544, 2.4984617999289185, 3.697896199999377, 5.2815539999864995, 3.317779300035909, 2.373412200016901, 1.9319732999429107, 4.101432699942961, 3.047119199996814, 3.8311058001127094, 2.8996447999961674, 3.750735100125894, 3.198045000201091, 3.1908649001270533, 4.316866799956188, 4.4317087000235915, 2.533314700005576, 2.948166500078514, 3.3146530999802053, 3.60208350000903, 3.365073700202629, 2.2837172001600266, 3.4476644000969827]"	"[6.603966000024229, 7.181370500009507, 4.178457000060007, 5.105719699990004, 4.187914100009948, 2.669473099987954, 4.382243599975482, 3.832196499919519, 4.797923100180924, 2.8822822000365704, 6.531221800018102, 6.316859500017017, 3.3995135999284685, 2.4324890999123454, 2.68520459998399, 3.965885000070557, 3.23168159998022, 2.634477199986577, 2.414878499926999, 3.2981606000103056, 2.932484900113195, 3.0499442000873387, 2.532377399969846, 2.418874599970877, 2.3517553999554366, 5.081658800132573, 2.532767300028354, 2.9323855000548065, 2.74913730006665, 2.748549999902025, 2.4984677999746054, 3.6979012999217957, 5.28156129992567, 3.317807100014761, 2.373416200047359, 1.9319800999946892, 4.101436999859288, 3.047125400044024, 3.831112400162965, 2.899651400046423, 3.7507400999311358, 3.1980686001479626, 3.190869700163603, 4.3168707001022995, 4.431724899914116, 2.5333199000451714, 2.948173600016162, 3.3146605000365525, 3.602087200153619, 3.3650813000276685, 2.283738400088623, 3.4476707000285387]"	final100	1	2022-11-10_23h08.43.428	Intentional Binding	2022.2.4	59.93770077
0.1	400	unexp	4	4	52	0	378.7847444	379.7845451	379.7845451	379.7845451	space	0.3051796	380.2178034		380.5175185	380.5175185	380.5175185	50	53	"[6.603961699875072, 7.181363600073382, 4.178450099891052, 5.105714899953455, 4.187907999847084, 2.669467199826613, 4.382238200167194, 3.832189899869263, 4.7979181001428515, 2.882275199983269, 6.531213799957186, 6.316855799872428, 3.3994853000622243, 2.432480299845338, 2.6852002998348325, 3.965880800038576, 3.2316725999116898, 2.634471899829805, 2.4148711999878287, 3.298140700208023, 2.9324759000446647, 3.049938900163397, 2.5323687000200152, 2.4188702998217195, 2.351750700036064, 5.08165240008384, 2.5327602000907063, 2.9323712999466807, 2.7491264001000673, 2.7485426999628544, 2.4984617999289185, 3.697896199999377, 5.2815539999864995, 3.317779300035909, 2.373412200016901, 1.9319732999429107, 4.101432699942961, 3.047119199996814, 3.8311058001127094, 2.8996447999961674, 3.750735100125894, 3.198045000201091, 3.1908649001270533, 4.316866799956188, 4.4317087000235915, 2.533314700005576, 2.948166500078514, 3.3146530999802053, 3.60208350000903, 3.365073700202629, 2.2837172001600266, 3.4476644000969827, 4.2185068000108]"	"[6.603966000024229, 7.181370500009507, 4.178457000060007, 5.105719699990004, 4.187914100009948, 2.669473099987954, 4.382243599975482, 3.832196499919519, 4.797923100180924, 2.8822822000365704, 6.531221800018102, 6.316859500017017, 3.3995135999284685, 2.4324890999123454, 2.68520459998399, 3.965885000070557, 3.23168159998022, 2.634477199986577, 2.414878499926999, 3.2981606000103056, 2.932484900113195, 3.0499442000873387, 2.532377399969846, 2.418874599970877, 2.3517553999554366, 5.081658800132573, 2.532767300028354, 2.9323855000548065, 2.74913730006665, 2.748549999902025, 2.4984677999746054, 3.6979012999217957, 5.28156129992567, 3.317807100014761, 2.373416200047359, 1.9319800999946892, 4.101436999859288, 3.047125400044024, 3.831112400162965, 2.899651400046423, 3.7507400999311358, 3.1980686001479626, 3.190869700163603, 4.3168707001022995, 4.431724899914116, 2.5333199000451714, 2.948173600016162, 3.3146605000365525, 3.602087200153619, 3.3650813000276685, 2.283738400088623, 3.4476707000285387, 4.218512300169095]"	final100	1	2022-11-10_23h08.43.428	Intentional Binding	2022.2.4	59.93770077
0.1	1000	exp	4	5	53	6	384.7335556	385.733124	385.733124	385.733124	space	0.2615945	386.1166697		386.4161059	386.4161059	386.4161059	75	54	"[6.603961699875072, 7.181363600073382, 4.178450099891052, 5.105714899953455, 4.187907999847084, 2.669467199826613, 4.382238200167194, 3.832189899869263, 4.7979181001428515, 2.882275199983269, 6.531213799957186, 6.316855799872428, 3.3994853000622243, 2.432480299845338, 2.6852002998348325, 3.965880800038576, 3.2316725999116898, 2.634471899829805, 2.4148711999878287, 3.298140700208023, 2.9324759000446647, 3.049938900163397, 2.5323687000200152, 2.4188702998217195, 2.351750700036064, 5.08165240008384, 2.5327602000907063, 2.9323712999466807, 2.7491264001000673, 2.7485426999628544, 2.4984617999289185, 3.697896199999377, 5.2815539999864995, 3.317779300035909, 2.373412200016901, 1.9319732999429107, 4.101432699942961, 3.047119199996814, 3.8311058001127094, 2.8996447999961674, 3.750735100125894, 3.198045000201091, 3.1908649001270533, 4.316866799956188, 4.4317087000235915, 2.533314700005576, 2.948166500078514, 3.3146530999802053, 3.60208350000903, 3.365073700202629, 2.2837172001600266, 3.4476644000969827, 4.2185068000108, 5.01556279999204]"	"[6.603966000024229, 7.181370500009507, 4.178457000060007, 5.105719699990004, 4.187914100009948, 2.669473099987954, 4.382243599975482, 3.832196499919519, 4.797923100180924, 2.8822822000365704, 6.531221800018102, 6.316859500017017, 3.3995135999284685, 2.4324890999123454, 2.68520459998399, 3.965885000070557, 3.23168159998022, 2.634477199986577, 2.414878499926999, 3.2981606000103056, 2.932484900113195, 3.0499442000873387, 2.532377399969846, 2.418874599970877, 2.3517553999554366, 5.081658800132573, 2.532767300028354, 2.9323855000548065, 2.74913730006665, 2.748549999902025, 2.4984677999746054, 3.6979012999217957, 5.28156129992567, 3.317807100014761, 2.373416200047359, 1.9319800999946892, 4.101436999859288, 3.047125400044024, 3.831112400162965, 2.899651400046423, 3.7507400999311358, 3.1980686001479626, 3.190869700163603, 4.3168707001022995, 4.431724899914116, 2.5333199000451714, 2.948173600016162, 3.3146605000365525, 3.602087200153619, 3.3650813000276685, 2.283738400088623, 3.4476707000285387, 4.218512300169095, 5.015569800045341]"	final100	1	2022-11-10_23h08.43.428	Intentional Binding	2022.2.4	59.93770077
0.4	1000	exp	4	6	54	4	391.4317117	392.4317492	392.4317492	392.4317492	space	0.0029974	392.8643762	393.1648713	393.1648713	393.1648713	393.1648713	100	55	"[6.603961699875072, 7.181363600073382, 4.178450099891052, 5.105714899953455, 4.187907999847084, 2.669467199826613, 4.382238200167194, 3.832189899869263, 4.7979181001428515, 2.882275199983269, 6.531213799957186, 6.316855799872428, 3.3994853000622243, 2.432480299845338, 2.6852002998348325, 3.965880800038576, 3.2316725999116898, 2.634471899829805, 2.4148711999878287, 3.298140700208023, 2.9324759000446647, 3.049938900163397, 2.5323687000200152, 2.4188702998217195, 2.351750700036064, 5.08165240008384, 2.5327602000907063, 2.9323712999466807, 2.7491264001000673, 2.7485426999628544, 2.4984617999289185, 3.697896199999377, 5.2815539999864995, 3.317779300035909, 2.373412200016901, 1.9319732999429107, 4.101432699942961, 3.047119199996814, 3.8311058001127094, 2.8996447999961674, 3.750735100125894, 3.198045000201091, 3.1908649001270533, 4.316866799956188, 4.4317087000235915, 2.533314700005576, 2.948166500078514, 3.3146530999802053, 3.60208350000903, 3.365073700202629, 2.2837172001600266, 3.4476644000969827, 4.2185068000108, 5.01556279999204, 3.131892899982631]"	"[6.603966000024229, 7.181370500009507, 4.178457000060007, 5.105719699990004, 4.187914100009948, 2.669473099987954, 4.382243599975482, 3.832196499919519, 4.797923100180924, 2.8822822000365704, 6.531221800018102, 6.316859500017017, 3.3995135999284685, 2.4324890999123454, 2.68520459998399, 3.965885000070557, 3.23168159998022, 2.634477199986577, 2.414878499926999, 3.2981606000103056, 2.932484900113195, 3.0499442000873387, 2.532377399969846, 2.418874599970877, 2.3517553999554366, 5.081658800132573, 2.532767300028354, 2.9323855000548065, 2.74913730006665, 2.748549999902025, 2.4984677999746054, 3.6979012999217957, 5.28156129992567, 3.317807100014761, 2.373416200047359, 1.9319800999946892, 4.101436999859288, 3.047125400044024, 3.831112400162965, 2.899651400046423, 3.7507400999311358, 3.1980686001479626, 3.190869700163603, 4.3168707001022995, 4.431724899914116, 2.5333199000451714, 2.948173600016162, 3.3146605000365525, 3.602087200153619, 3.3650813000276685, 2.283738400088623, 3.4476707000285387, 4.218512300169095, 5.015569800045341, 3.1319003999233246]"	final100	1	2022-11-10_23h08.43.428	Intentional Binding	2022.2.4	59.93770077
0.4	1000	exp	4	7	55	10	396.2974612	397.2970229	397.2970229	397.2970229	space	0.3104865	398.0299737		398.3305466	398.3305466	398.3305466	10	56	"[6.603961699875072, 7.181363600073382, 4.178450099891052, 5.105714899953455, 4.187907999847084, 2.669467199826613, 4.382238200167194, 3.832189899869263, 4.7979181001428515, 2.882275199983269, 6.531213799957186, 6.316855799872428, 3.3994853000622243, 2.432480299845338, 2.6852002998348325, 3.965880800038576, 3.2316725999116898, 2.634471899829805, 2.4148711999878287, 3.298140700208023, 2.9324759000446647, 3.049938900163397, 2.5323687000200152, 2.4188702998217195, 2.351750700036064, 5.08165240008384, 2.5327602000907063, 2.9323712999466807, 2.7491264001000673, 2.7485426999628544, 2.4984617999289185, 3.697896199999377, 5.2815539999864995, 3.317779300035909, 2.373412200016901, 1.9319732999429107, 4.101432699942961, 3.047119199996814, 3.8311058001127094, 2.8996447999961674, 3.750735100125894, 3.198045000201091, 3.1908649001270533, 4.316866799956188, 4.4317087000235915, 2.533314700005576, 2.948166500078514, 3.3146530999802053, 3.60208350000903, 3.365073700202629, 2.2837172001600266, 3.4476644000969827, 4.2185068000108, 5.01556279999204, 3.131892899982631, 2.91879600007087]"	"[6.603966000024229, 7.181370500009507, 4.178457000060007, 5.105719699990004, 4.187914100009948, 2.669473099987954, 4.382243599975482, 3.832196499919519, 4.797923100180924, 2.8822822000365704, 6.531221800018102, 6.316859500017017, 3.3995135999284685, 2.4324890999123454, 2.68520459998399, 3.965885000070557, 3.23168159998022, 2.634477199986577, 2.414878499926999, 3.2981606000103056, 2.932484900113195, 3.0499442000873387, 2.532377399969846, 2.418874599970877, 2.3517553999554366, 5.081658800132573, 2.532767300028354, 2.9323855000548065, 2.74913730006665, 2.748549999902025, 2.4984677999746054, 3.6979012999217957, 5.28156129992567, 3.317807100014761, 2.373416200047359, 1.9319800999946892, 4.101436999859288, 3.047125400044024, 3.831112400162965, 2.899651400046423, 3.7507400999311358, 3.1980686001479626, 3.190869700163603, 4.3168707001022995, 4.431724899914116, 2.5333199000451714, 2.948173600016162, 3.3146605000365525, 3.602087200153619, 3.3650813000276685, 2.283738400088623, 3.4476707000285387, 4.218512300169095, 5.015569800045341, 3.1319003999233246, 2.918800399871543]"	final100	1	2022-11-10_23h08.43.428	Intentional Binding	2022.2.4	59.93770077
0.1	1000	exp	4	8	56	3	401.2462419	402.2457903	402.2457903	402.2457903	space	0.3524997	402.7286578		403.0287244	403.0287244	403.0287244	10	57	"[6.603961699875072, 7.181363600073382, 4.178450099891052, 5.105714899953455, 4.187907999847084, 2.669467199826613, 4.382238200167194, 3.832189899869263, 4.7979181001428515, 2.882275199983269, 6.531213799957186, 6.316855799872428, 3.3994853000622243, 2.432480299845338, 2.6852002998348325, 3.965880800038576, 3.2316725999116898, 2.634471899829805, 2.4148711999878287, 3.298140700208023, 2.9324759000446647, 3.049938900163397, 2.5323687000200152, 2.4188702998217195, 2.351750700036064, 5.08165240008384, 2.5327602000907063, 2.9323712999466807, 2.7491264001000673, 2.7485426999628544, 2.4984617999289185, 3.697896199999377, 5.2815539999864995, 3.317779300035909, 2.373412200016901, 1.9319732999429107, 4.101432699942961, 3.047119199996814, 3.8311058001127094, 2.8996447999961674, 3.750735100125894, 3.198045000201091, 3.1908649001270533, 4.316866799956188, 4.4317087000235915, 2.533314700005576, 2.948166500078514, 3.3146530999802053, 3.60208350000903, 3.365073700202629, 2.2837172001600266, 3.4476644000969827, 4.2185068000108, 5.01556279999204, 3.131892899982631, 2.91879600007087, 1.9157066999468952]"	"[6.603966000024229, 7.181370500009507, 4.178457000060007, 5.105719699990004, 4.187914100009948, 2.669473099987954, 4.382243599975482, 3.832196499919519, 4.797923100180924, 2.8822822000365704, 6.531221800018102, 6.316859500017017, 3.3995135999284685, 2.4324890999123454, 2.68520459998399, 3.965885000070557, 3.23168159998022, 2.634477199986577, 2.414878499926999, 3.2981606000103056, 2.932484900113195, 3.0499442000873387, 2.532377399969846, 2.418874599970877, 2.3517553999554366, 5.081658800132573, 2.532767300028354, 2.9323855000548065, 2.74913730006665, 2.748549999902025, 2.4984677999746054, 3.6979012999217957, 5.28156129992567, 3.317807100014761, 2.373416200047359, 1.9319800999946892, 4.101436999859288, 3.047125400044024, 3.831112400162965, 2.899651400046423, 3.7507400999311358, 3.1980686001479626, 3.190869700163603, 4.3168707001022995, 4.431724899914116, 2.5333199000451714, 2.948173600016162, 3.3146605000365525, 3.602087200153619, 3.3650813000276685, 2.283738400088623, 3.4476707000285387, 4.218512300169095, 5.015569800045341, 3.1319003999233246, 2.918800399871543, 1.9157129998784512]"	final100	1	2022-11-10_23h08.43.428	Intentional Binding	2022.2.4	59.93770077
0.7	1000	exp	4	9	57	11	404.9452498	405.944756	405.944756	405.944756	space	0.8801791	407.5440577		407.844309	407.844309	407.844309	50	58	"[6.603961699875072, 7.181363600073382, 4.178450099891052, 5.105714899953455, 4.187907999847084, 2.669467199826613, 4.382238200167194, 3.832189899869263, 4.7979181001428515, 2.882275199983269, 6.531213799957186, 6.316855799872428, 3.3994853000622243, 2.432480299845338, 2.6852002998348325, 3.965880800038576, 3.2316725999116898, 2.634471899829805, 2.4148711999878287, 3.298140700208023, 2.9324759000446647, 3.049938900163397, 2.5323687000200152, 2.4188702998217195, 2.351750700036064, 5.08165240008384, 2.5327602000907063, 2.9323712999466807, 2.7491264001000673, 2.7485426999628544, 2.4984617999289185, 3.697896199999377, 5.2815539999864995, 3.317779300035909, 2.373412200016901, 1.9319732999429107, 4.101432699942961, 3.047119199996814, 3.8311058001127094, 2.8996447999961674, 3.750735100125894, 3.198045000201091, 3.1908649001270533, 4.316866799956188, 4.4317087000235915, 2.533314700005576, 2.948166500078514, 3.3146530999802053, 3.60208350000903, 3.365073700202629, 2.2837172001600266, 3.4476644000969827, 4.2185068000108, 5.01556279999204, 3.131892899982631, 2.91879600007087, 1.9157066999468952, 4.931650000158697]"	"[6.603966000024229, 7.181370500009507, 4.178457000060007, 5.105719699990004, 4.187914100009948, 2.669473099987954, 4.382243599975482, 3.832196499919519, 4.797923100180924, 2.8822822000365704, 6.531221800018102, 6.316859500017017, 3.3995135999284685, 2.4324890999123454, 2.68520459998399, 3.965885000070557, 3.23168159998022, 2.634477199986577, 2.414878499926999, 3.2981606000103056, 2.932484900113195, 3.0499442000873387, 2.532377399969846, 2.418874599970877, 2.3517553999554366, 5.081658800132573, 2.532767300028354, 2.9323855000548065, 2.74913730006665, 2.748549999902025, 2.4984677999746054, 3.6979012999217957, 5.28156129992567, 3.317807100014761, 2.373416200047359, 1.9319800999946892, 4.101436999859288, 3.047125400044024, 3.831112400162965, 2.899651400046423, 3.7507400999311358, 3.1980686001479626, 3.190869700163603, 4.3168707001022995, 4.431724899914116, 2.5333199000451714, 2.948173600016162, 3.3146605000365525, 3.602087200153619, 3.3650813000276685, 2.283738400088623, 3.4476707000285387, 4.218512300169095, 5.015569800045341, 3.1319003999233246, 2.918800399871543, 1.9157129998784512, 4.931658900110051]"	final100	1	2022-11-10_23h08.43.428	Intentional Binding	2022.2.4	59.93770077
0.4	1000	exp	4	10	58	7	412.776254	413.7760003	413.7760003	413.7760003	space	0.3026822	414.5095396	414.8093377	414.8093377	414.8093377	414.8093377	100	59	"[6.603961699875072, 7.181363600073382, 4.178450099891052, 5.105714899953455, 4.187907999847084, 2.669467199826613, 4.382238200167194, 3.832189899869263, 4.7979181001428515, 2.882275199983269, 6.531213799957186, 6.316855799872428, 3.3994853000622243, 2.432480299845338, 2.6852002998348325, 3.965880800038576, 3.2316725999116898, 2.634471899829805, 2.4148711999878287, 3.298140700208023, 2.9324759000446647, 3.049938900163397, 2.5323687000200152, 2.4188702998217195, 2.351750700036064, 5.08165240008384, 2.5327602000907063, 2.9323712999466807, 2.7491264001000673, 2.7485426999628544, 2.4984617999289185, 3.697896199999377, 5.2815539999864995, 3.317779300035909, 2.373412200016901, 1.9319732999429107, 4.101432699942961, 3.047119199996814, 3.8311058001127094, 2.8996447999961674, 3.750735100125894, 3.198045000201091, 3.1908649001270533, 4.316866799956188, 4.4317087000235915, 2.533314700005576, 2.948166500078514, 3.3146530999802053, 3.60208350000903, 3.365073700202629, 2.2837172001600266, 3.4476644000969827, 4.2185068000108, 5.01556279999204, 3.131892899982631, 2.91879600007087, 1.9157066999468952, 4.931650000158697, 2.664868799969554]"	"[6.603966000024229, 7.181370500009507, 4.178457000060007, 5.105719699990004, 4.187914100009948, 2.669473099987954, 4.382243599975482, 3.832196499919519, 4.797923100180924, 2.8822822000365704, 6.531221800018102, 6.316859500017017, 3.3995135999284685, 2.4324890999123454, 2.68520459998399, 3.965885000070557, 3.23168159998022, 2.634477199986577, 2.414878499926999, 3.2981606000103056, 2.932484900113195, 3.0499442000873387, 2.532377399969846, 2.418874599970877, 2.3517553999554366, 5.081658800132573, 2.532767300028354, 2.9323855000548065, 2.74913730006665, 2.748549999902025, 2.4984677999746054, 3.6979012999217957, 5.28156129992567, 3.317807100014761, 2.373416200047359, 1.9319800999946892, 4.101436999859288, 3.047125400044024, 3.831112400162965, 2.899651400046423, 3.7507400999311358, 3.1980686001479626, 3.190869700163603, 4.3168707001022995, 4.431724899914116, 2.5333199000451714, 2.948173600016162, 3.3146605000365525, 3.602087200153619, 3.3650813000276685, 2.283738400088623, 3.4476707000285387, 4.218512300169095, 5.015569800045341, 3.1319003999233246, 2.918800399871543, 1.9157129998784512, 4.931658900110051, 2.6648774000350386]"	final100	1	2022-11-10_23h08.43.428	Intentional Binding	2022.2.4	59.93770077
0.7	400	unexp	4	11	59	2	417.4753627	418.4748343	418.4748343	418.4748343	space	0.2682206	419.4748539		419.7743799	419.7743799	419.7743799	100	60	"[6.603961699875072, 7.181363600073382, 4.178450099891052, 5.105714899953455, 4.187907999847084, 2.669467199826613, 4.382238200167194, 3.832189899869263, 4.7979181001428515, 2.882275199983269, 6.531213799957186, 6.316855799872428, 3.3994853000622243, 2.432480299845338, 2.6852002998348325, 3.965880800038576, 3.2316725999116898, 2.634471899829805, 2.4148711999878287, 3.298140700208023, 2.9324759000446647, 3.049938900163397, 2.5323687000200152, 2.4188702998217195, 2.351750700036064, 5.08165240008384, 2.5327602000907063, 2.9323712999466807, 2.7491264001000673, 2.7485426999628544, 2.4984617999289185, 3.697896199999377, 5.2815539999864995, 3.317779300035909, 2.373412200016901, 1.9319732999429107, 4.101432699942961, 3.047119199996814, 3.8311058001127094, 2.8996447999961674, 3.750735100125894, 3.198045000201091, 3.1908649001270533, 4.316866799956188, 4.4317087000235915, 2.533314700005576, 2.948166500078514, 3.3146530999802053, 3.60208350000903, 3.365073700202629, 2.2837172001600266, 3.4476644000969827, 4.2185068000108, 5.01556279999204, 3.131892899982631, 2.91879600007087, 1.9157066999468952, 4.931650000158697, 2.664868799969554, 2.5687796999700367]"	"[6.603966000024229, 7.181370500009507, 4.178457000060007, 5.105719699990004, 4.187914100009948, 2.669473099987954, 4.382243599975482, 3.832196499919519, 4.797923100180924, 2.8822822000365704, 6.531221800018102, 6.316859500017017, 3.3995135999284685, 2.4324890999123454, 2.68520459998399, 3.965885000070557, 3.23168159998022, 2.634477199986577, 2.414878499926999, 3.2981606000103056, 2.932484900113195, 3.0499442000873387, 2.532377399969846, 2.418874599970877, 2.3517553999554366, 5.081658800132573, 2.532767300028354, 2.9323855000548065, 2.74913730006665, 2.748549999902025, 2.4984677999746054, 3.6979012999217957, 5.28156129992567, 3.317807100014761, 2.373416200047359, 1.9319800999946892, 4.101436999859288, 3.047125400044024, 3.831112400162965, 2.899651400046423, 3.7507400999311358, 3.1980686001479626, 3.190869700163603, 4.3168707001022995, 4.431724899914116, 2.5333199000451714, 2.948173600016162, 3.3146605000365525, 3.602087200153619, 3.3650813000276685, 2.283738400088623, 3.4476707000285387, 4.218512300169095, 5.015569800045341, 3.1319003999233246, 2.918800399871543, 1.9157129998784512, 4.931658900110051, 2.6648774000350386, 2.568785599898547]"	final100	1	2022-11-10_23h08.43.428	Intentional Binding	2022.2.4	59.93770077
																											
																											
		Delay 	response 																								
		0.7	223.3220339																								
		0.1	229.5636364																								
		0.4	224.5714286																								
